Timestamp_ms,Accel_X,Accel_Y,Accel_Z,Gyro_X,Gyro_Y,Gyro_Z
333339,-0.004730279965199614,0.007539139582417887,0.000681988091683414,1.1974511791137123,-0.8030378109994665,-0.1945498465929525
333444,0.3367567950123751,-0.11789129518808712,-0.20504618350647358,51.76425723722375,243.66039981981027,-336.3830232453862
333551,-0.43195912903758027,-1.0339069574925221,-0.6335018268381016,26.327162497129386,-63.48228396898362,138.05053360528083
333656,0.15980133907638436,0.8289866953286706,0.35056591435152956,36.60555603194545,-196.92117447451176,163.85044551900452
333763,0.2901838828695898,0.8758552145135183,1.3877179434101947,-219.11060521108416,84.18408013729754,-59.31538368115759
333868,-0.37394416319382034,-0.7851923997570193,-1.4175975162862873,144.21168097586786,154.9291840824178,-130.9632854447077
333975,-0.08288423753527471,-0.583975271350364,-0.4910564019442356,43.46252100577795,-97.86093233290993,22.511267447011807
334079,0.33791508100053697,0.18494376782734592,0.8603704973989293,29.557714250453976,-79.24988193882808,104.25747974374588
334183,0.0695743972067932,0.930925093701702,0.5860915936326617,-112.3203153698131,9.44095627186596,15.212877848077847
334288,-0.18907325504332392,-0.1864346556848359,-0.5560464188197072,-81.6450246024841,163.99537965522228,-107.52632592206932
334394,-0.5545487445566697,-1.115713529127884,-1.159054548387509,235.31706250909215,-76.17640014124399,-17.69885001779816
334499,0.6625788892945959,0.7758989750299771,1.289291661061255,-112.73700092882459,-192.81485851829305,105.80853512836742
334605,0.763562213592484,0.19567878547870995,0.7923121344760763,-59.98010278122915,230.79308218747252,-15.139509830832557
334710,-1.5869447981127962,-0.2886636544008923,-1.8567199258912674,82.77795150759965,31.309931655265252,-30.340883137632478
334814,0.16848134680054427,0.192728361644877,0.14842451304758733,8.852459276117312,-201.81140805974556,-53.648646403955894
334919,1.3164655208760159,-0.4969971657401716,1.840432157854635,-78.84895748861608,52.79584776288905,44.78916065796135
335025,-0.6385860535817041,0.35185094681970336,-1.3678686053286129,60.77551288172639,176.31519828443282,86.4061051569428
335130,-0.63076672684088,0.3153012115476436,-0.430263391845078,-49.88495458241745,-194.19131672016871,-91.52856684786687
335234,0.3909564674334473,-0.40403130016747546,0.8896410142798388,39.348635129450244,-5.068005205078444,-28.679435906018064
335339,0.40427736667254244,-0.10854992835331136,-0.11822750168073753,101.08157586512151,210.90291788592884,46.783285770558436
335443,-0.31813994761743,0.25139293756753334,-0.11296653268107062,-175.8393888066474,-202.97914678226422,-25.287247005960808
335548,-0.012159373386174115,4.728217540668489e-05,-0.2896039183660357,-39.9750242047751,16.998064209554606,106.87337109794613
335652,-0.05526414210085598,-0.069561414123975,0.341733700079087,161.21625071185665,72.75622839072025,-78.53853898920822
335756,-0.018012793458765462,-0.060228561886819784,-0.046754010573594726,130.25540906276854,5.230901409191404,-148.86962119087238
335861,0.18582011193229692,0.31357059473626825,-0.04109483559204834,-313.9591783358032,-25.14150991032338,205.1620477801436
335968,0.05061816590042058,-0.5012561789221215,-0.04789543778130007,-30.142501215481854,-76.02134804938333,15.513913478169634
336075,-0.1418878463989642,-0.10392664696288854,-0.08189959410352923,347.68554150378384,94.25091378562729,-101.74622199548627
336182,-0.3458314865070473,1.2318118919445715,0.45124491444713144,-84.64119387839014,17.105398403476794,-38.00678918731415
336286,0.48694733205606955,-1.1045692844867792,-0.5707452732503127,-325.9151468803014,-57.49676153748012,12.329973683455853
336391,0.19708364626904873,-0.5824398684469747,0.11582270117910096,223.1547006875153,-40.649388680088364,197.16357585079976
336496,-0.6702949157777627,1.5156820403436992,0.43089599669111023,233.25373047449736,111.40336540401022,-153.39154894471997
336601,0.3328695448261904,-0.29767224908788803,-0.28176821062358537,-414.0877837210006,-61.63680444156734,-169.8767428336953
336706,0.12926526198347493,-1.2706266279613128,-0.3401730193789565,149.21725878181772,0.5532955787834544,293.24208801107517
336810,-0.3893891707186727,0.956485354648287,0.18681959546442437,188.71002257848082,-39.35661888600509,-70.48337648148058
336915,0.7824145593644862,0.5672296712173628,0.9507938519235535,-271.43095511930755,95.05861444193182,-121.30841468091005
337020,-0.9909305077436188,-0.9783176543776575,-1.5095991395400448,115.21120441127789,31.328345721956385,92.73089330324228
337125,0.4290692421629295,0.011905357642069236,0.6410054439315762,90.88715242545965,-315.4323619824662,-63.122187540705426
337229,0.5904230423499377,0.5633923519720568,0.6076620718553947,-172.49807558007805,423.00728942822917,106.08287570514717
337334,-1.3877408975582015,-0.14894355802669024,-1.3317002588397122,73.52285983938795,-190.56951647382826,-39.58593360502018
337440,1.5484846498800338,-0.25150538014456836,1.4810647362986828,68.502803072061,-106.69881240859296,-94.65571804034204
337544,-0.8278171871696556,0.18269446946420048,-0.951869880303176,-89.03242983539212,217.08153098649666,67.22344400007434
337649,-0.30519194340020583,-0.10201523952577414,0.07046830171785289,34.79935381189377,-216.61100486412894,73.96346398381597
337756,0.9026805331429717,0.22207494566576838,0.5101861986129843,-90.51842825981562,203.08198404687653,-70.2811387077472
337861,-0.8857715632475824,-0.28285126414062006,-0.8339553513820277,276.28129527686895,-150.31579574123631,-107.49902728909996
337968,0.6687791611071767,0.2992231969307067,0.8394933696948927,-272.53713792449105,80.18367323853806,180.31479829070526
338073,-0.14895486195659147,-0.6861519005851303,-0.19393322326403867,-174.61479306349682,-37.396457430171516,30.709603460545196
338178,-0.4640825785339851,0.9921285027252857,-0.32985498672207775,668.452376279292,-8.064805777115506,-239.1376231150163
338282,0.3485528350965049,0.10902636391287764,0.036426421261554945,-636.1197395876102,72.53655557700415,82.24816758930683
338387,0.4248354230348542,-2.132550833776488,0.21894613160405138,213.56384075181424,-111.23498444082635,212.74893315835143
338492,-0.691885008959707,2.6855539328759317,-0.01462934928521106,157.36407604687275,110.1334008952268,-189.14990426266712
338598,0.1125960272573501,-1.4661435597218169,0.12058153854053782,-431.33318419867965,-104.27949869345264,-27.446086543475257
338704,0.23577625845839703,0.33670706914176557,-0.4089365194225559,602.1529775052496,94.22861781064168,65.92420874585291
338809,0.07875737422508139,0.7437091436275107,0.21119999421984514,-532.0222514774183,-67.68091771307675,-22.557355565987283
338914,-0.008726132887567855,-2.5260610134709403,0.05686501618051554,319.3397219560078,65.7509830684607,74.82376910293277
339021,-0.7127981499603857,3.0248320331990475,-0.14977673131189054,-38.85362426815328,-63.875794343537905,-42.6108762406992
339128,0.7262758803118167,-0.9355479356248406,0.5089122593850505,-388.6056109418736,-65.38238469700974,-94.24826545113594
339235,0.3960247854551338,-1.1451075175118555,-0.548684612626038,669.8707882653775,252.49385383541224,42.97225194050654
339340,-0.9082543124940611,1.151800871565623,-0.11210090650304197,-455.47946133921624,-188.7903231548788,172.88549135537738
339445,-0.5208740858984869,-0.33444618769907575,-0.11659628173054673,76.0019338321479,-142.94370616857103,-223.51264266538695
339550,2.349050138181183,-0.09350186050932871,1.5456548238332068,19.92385764236098,296.97779443859986,65.81895177709006
339655,-2.0400447429831607,0.2766401184998807,-1.6746376090795516,-21.42252588237581,-16.1080415302848,106.05449489694281
339760,-0.1783596467901892,-0.1031742258758365,-0.14872319998864042,189.610912370455,-358.38671454394216,-223.64137296763636
339868,1.9765590007197646,-0.4920593996935683,1.6749895907273065,-288.3997004696851,387.4318275362425,246.49846418436152
339974,-2.5809090212221957,0.8911573429195633,-2.151903492905138,151.3502319328179,-109.51746391286018,-116.27401249942355
340081,2.5069707126627283,-0.697477442126235,2.2558089406668196,-41.35654524020521,-127.66846476663903,-35.96050317575187
340186,-1.5179611856476245,0.24158779786836382,-1.49553287025745,57.51011224476371,190.98931362288678,83.10041637506635
340293,-0.07888007525673599,0.04094314197306853,-0.05012097905683649,9.258848884045833,-215.06374332648704,-130.33711360562748
340399,1.1016671471303077,-0.2902630254958329,1.1188271669380487,-121.07442841487789,257.8992999852759,197.59908168319924
340504,-1.7139499674636196,0.719713455800841,-1.7579613192640753,111.39767036172202,-237.03351961402186,-140.23073340012226
340609,2.4843109908424066,-0.7739840069009309,2.3790298194752215,-79.86068080168042,108.99975011060152,-5.344881150569908
340714,-2.4694006666470916,0.22928385602709683,-2.136533829187272,63.07996385274567,97.26838185299204,105.09415362059704
340819,1.14428401539689,-0.03209726275734009,0.9572501064637714,48.57556475349185,-287.7582733760917,-142.18398322052593
340926,0.46415250556942356,0.2851877372709888,0.28323572320655793,-118.1402923165869,335.5218271895515,95.09093412613048
341031,-1.7176969929013974,0.13111199382145125,-1.6492763944229356,39.50189447716126,-229.79146952452527,1.5593114321787542
341139,2.523782690514125,-0.838695779901194,2.8354550461953743,-24.632252470199685,60.77042310480642,-3.526343309274825
341245,-2.1763963006005698,0.4612485205901987,-2.3322251320828786,84.82543416579178,133.62511032167941,-34.78913947840152
341351,0.47517528974308554,0.3547845056143248,0.19315111001532803,19.524986474099286,-300.3884059242117,-64.21657422185883
341457,1.2520682973145887,-0.20102760091468427,1.5112634596786854,-181.22174834407997,290.2948660684966,173.29556614941046
341564,-1.774018041235026,-0.28038773520494786,-1.7968580541186054,118.92967956080619,-58.79201989694116,-55.694360494811576
341669,1.291825853867001,0.019142080247079564,1.3949483461068732,55.83848359914871,-202.03634621631312,-153.55444251950541
341774,-0.3929381221191768,0.2843115742690041,-0.573630758999897,-75.21234899757704,277.34630492724347,141.46901196551931
341879,-0.7938239353449752,0.10305096200954686,-0.9589835411967738,-10.053690219190658,-157.8516374598414,58.61517728223987
341984,1.7688697814345353,-0.3985047682243493,2.29714410712054,-6.7844157871463855,-29.47686554021701,-120.22449531887966
342089,-1.5126385390416086,-0.019893020826504543,-1.8219238444794026,98.28160556897149,198.96241637632727,-23.598239674190417
342196,-0.12020582257182741,0.47726122473278515,-0.4016647531072282,-55.72903572254795,-290.75610616269717,71.55785920395117
342301,1.8084480587277187,-0.31596178065610503,2.3078093841032032,-125.29021639646537,201.0292154728317,71.36076382591551
342405,-2.059823575125767,-0.12463786084433254,-2.258275024169978,167.48166487751575,73.46627829012357,-99.17558484024501
342510,0.7534639105590838,0.184720589253597,0.7356232658773791,40.56417242384096,-325.98035512336236,-93.64883657624304
342616,0.8621730428833752,0.11471198137941237,0.8111383551151916,-197.08579588260878,344.080816835824,186.34687960761644
342721,-1.5923423563391437,-0.11915643440075156,-1.704278338458747,73.4962694952311,-117.20267717745769,-19.587536182929718
342828,1.284284052575679,-0.29150655036080736,1.7830604951146924,97.51355489543471,-182.42043916785417,-146.7578556444717
342933,-0.3855943416549458,0.37172470350116965,-0.7656404680482465,-68.92465299860238,318.1921721436065,106.22737760461314
343038,-0.6717488613436561,0.0889210948781866,-0.9037183344072356,-15.0089818495215,-201.4993215979602,14.194669487275892
343143,1.3617153880690507,-0.3150437426551594,1.886220020111719,-16.34093599775125,-8.23525952012634,-42.79676957446023
343248,-1.1267040487469484,0.02447985056617869,-1.3988615078315365,46.24760596861191,151.1304208181764,15.888946020503376
343353,-0.040493731715315597,0.1946200229097288,-0.21200403381804286,25.289798466178855,-197.3306029944837,-27.34696377312047
343458,1.2782348182683805,-0.11422797670760952,1.7856405123433523,-70.15877484571826,85.21499755835094,32.7966379207815
343564,-1.3171924580119665,0.0027655571070503687,-1.6611490282320192,6.592167850513329,152.17230432918015,32.47379000100964
343670,-0.11262877954643477,0.13328264922699237,-0.42173641670286977,43.499896527938354,-213.95020436969978,-80.15965022032394
343776,1.338592226438554,-0.340969047402165,1.9716963666512894,9.744272537824386,-44.43937056584843,6.514425074669447
343881,-0.6394363236768539,0.3463149287840502,-0.8612201521574085,-79.55855756869629,280.85699787668904,99.14937714835965
343986,-1.0078526391077192,-0.018488533633110142,-1.3107689114814112,48.71089661405252,-148.87275733875492,-71.33102021618474
344091,1.12340844767332,-0.3542532691877782,1.5262213981073849,80.33235228146458,-199.26499451329414,-76.975462414901
344195,0.5620141841659594,0.4423024048230768,0.3918034338223028,-172.3173581726548,338.6312724174444,159.75939258194995
344300,-1.7751473093175638,-0.19092635402546781,-1.892251617942656,85.55195568515671,-84.6805587790939,-48.00690064782954
344405,0.8862744151815646,-0.10883094673410196,1.0704218780586168,125.46773558979025,-303.48502145486424,-159.87193570161506
344510,1.1852910740346352,0.09220233289916836,1.2091205442820676,-219.5391542593463,372.78353655928834,216.68652829046496
344615,-2.1551048879819747,0.08597997889563308,-2.279880175944127,78.01169525729082,-18.597782828179426,-34.85044948218785
344720,0.9341360933266148,0.046303733437752514,0.8389470136278319,119.05849008005238,-314.92190838550334,-159.97208562263913
344825,1.0337605632512112,-0.3348414553077372,1.2803840017047872,-146.27519961113524,237.25546625455226,138.30585038592494
344930,-1.5834801977909212,0.23492375787885286,-1.653151530693077,35.67524266098694,29.4055792851705,7.22857023916432
345036,0.644374135407983,0.12060136810952635,0.526345737176251,27.93014694368152,-87.60858015039963,-54.26937509201447
345141,0.10387075967467184,-0.19700528009818277,0.1699612453284507,0.3838432831241114,-15.357868685345291,-8.390837824373907
345246,0.15645862996130705,-0.0016938754889005148,0.20980232227502896,-24.892117004634596,26.830397187819596,46.196747594255946
345351,-0.4890749592384245,0.10486434692994463,-0.510333289087706,1.5861566723112717,72.7877637382558,-9.288313491824912
345456,-0.33198260755916703,0.051141140659056485,-0.5414550830410765,41.60213776027626,-149.74734283599196,-52.77488765942988
345563,1.8582325011404064,-0.31324430858294317,2.3160079788277605,-74.94325147451572,82.1978795518189,61.93221547941637
345667,-1.8927852261437685,0.28076138034642845,-2.1941585489744098,61.663513237861416,141.06703278266224,17.227978891395196
345772,-0.37249710196796354,0.20552877122330085,-0.7111790658839353,-4.218816431640004,-250.01206118036268,-75.50516809500898
345876,2.238204283642351,-0.5909402713399162,3.0260159000646523,-12.534484619231629,-24.857347172179324,-18.18178296242932
345981,-1.2076085885104988,0.333065013853791,-1.7109033834094043,-31.91625370427432,366.55737161699767,138.44358746866385
346086,-0.8923447199637963,0.20374236553706848,-1.0409862111299308,11.89008040854779,-225.31593316744568,-52.53192270291996
346190,0.992354801991123,-0.3654824091439373,1.5032370614303465,103.32763453927038,-216.49361896299266,-139.5035491774386
346294,0.31531007491780694,0.175664568141102,-0.051116741926333614,-132.27685509881388,312.06817508373456,132.23959588253217
346398,-0.66010143235582,-0.024291019707443417,-0.6757327313828513,10.267718644927328,-49.12107936619295,41.793319502509156
346503,0.048523610470478054,-0.009948104681036008,0.21623378944966137,72.84389355497169,-84.08995240296676,-89.75714334742383
346608,0.1924534408284955,0.035820262030953745,0.18264266714658156,-32.95821461813851,17.84268872899607,-2.737207324469523
346714,-0.03269949936952031,-0.04397417484946245,-0.11515658647829058,0.3624557539970823,-10.496314302481712,27.241360660944423
346819,-0.008159594846379327,0.02007838802188862,0.005776206351162069,-13.552448137075878,50.4357431420201,13.89697401741174
346924,-0.029044267386070237,-0.009745655188781946,-0.028197349815485048,1.3601484081160558,-0.5120536674665499,0.1701738987535564
