Timestamp_ms,Accel_X,Accel_Y,Accel_Z,Gyro_X,Gyro_Y,Gyro_Z
181298,0.24,-0.13,0.37,-17.52,-7.02,27.95
181403,0.53,-0.29,0.82,-0.12,0.06,-0.31
181508,0.53,-0.28,0.82,-0.24,0.61,-0.06
181612,0.53,-0.30,0.82,0.12,0.85,-1.34
181717,0.53,-0.27,0.82,-0.85,0.98,-1.16
181822,0.53,-0.29,0.81,-1.46,0.12,-0.73
181927,0.53,-0.29,0.82,1.40,0.55,-1.95
182032,0.54,-0.29,0.82,-3.91,0.00,0.67
182137,0.53,-0.29,0.82,8.06,-2.01,-2.14
182243,0.55,-0.25,0.81,2.38,-0.79,-4.33
182348,0.54,-0.31,0.80,-8.24,-11.84,4.64
182453,0.55,-0.30,0.85,-10.68,-1.22,14.22
182558,0.55,-0.36,0.84,-7.45,9.16,18.92
182665,0.49,-0.31,0.83,38.27,21.48,10.25
182769,0.49,-0.30,0.89,-1.89,32.65,12.51
182874,0.33,-0.23,1.03,51.88,81.97,17.03
182979,0.20,-0.02,0.95,61.16,62.19,9.89
183085,0.12,-0.13,0.90,-62.50,28.81,-34.12
183190,0.11,-0.29,0.97,-49.74,-18.01,-8.30
183294,0.14,-0.35,1.01,-12.63,-5.00,-5.37
183399,0.12,-0.43,0.93,7.45,7.51,3.23
183506,0.14,-0.10,0.92,210.27,-10.01,17.52
183611,0.13,0.12,0.92,-12.39,-4.46,-12.08
183716,0.14,-0.21,1.03,-114.62,0.79,-5.07
183821,0.12,-0.22,0.99,72.20,2.56,14.47
183926,0.12,0.06,0.97,138.12,-8.42,7.08
184031,0.13,0.16,0.97,11.29,-0.49,-1.10
184136,0.11,0.12,0.96,-128.36,7.45,-13.73
184241,0.10,-0.34,0.96,-136.47,8.73,-1.71
184346,0.10,-0.30,0.97,94.85,-11.29,3.23
184451,0.13,-0.03,1.01,165.16,-12.57,5.07
184556,0.11,0.12,0.99,-68.18,4.94,-6.23
184662,0.11,-0.27,1.00,-122.74,9.89,1.59
184769,0.11,-0.39,0.95,34.91,-2.81,1.83
184875,0.10,0.09,0.94,203.12,-21.79,-0.43
184981,0.12,0.15,0.94,-205.69,16.05,-10.25
185087,0.11,-0.22,1.01,-136.17,13.12,-0.43
185194,0.09,-0.36,0.97,51.82,-4.88,2.38
185298,0.10,0.10,0.95,115.84,-11.41,-2.75
185405,0.10,0.15,1.00,-84.78,16.85,-3.11
185510,0.10,-0.12,1.02,-117.92,13.18,0.49
185616,0.09,-0.36,0.96,-26.06,2.20,-2.01
185721,0.10,-0.08,1.05,201.66,-26.37,-0.85
185826,0.09,0.20,0.93,-3.17,-1.71,-1.34
185931,0.11,-0.09,1.00,-170.17,20.08,-0.06
186036,0.07,-0.37,0.98,-40.10,5.62,-3.05
186141,0.09,0.00,1.02,325.13,-41.08,-0.43
186246,0.08,0.23,0.92,-92.65,8.79,-5.31
186351,0.09,-0.23,0.97,-161.38,13.06,2.44
186456,0.05,-0.53,0.88,0.55,1.34,2.14
186561,0.07,0.02,1.03,262.51,-30.94,3.85
186668,0.09,0.14,0.94,-109.92,8.67,-9.58
186773,0.08,-0.29,0.96,-176.15,14.83,-4.21
186879,0.06,-0.50,0.90,87.65,-10.25,5.74
186984,0.10,0.05,1.01,264.65,-27.40,6.65
187089,0.10,0.25,0.93,-78.80,2.69,-13.92
187194,0.14,-0.27,0.94,-132.14,7.39,-2.01
187300,0.10,-0.37,0.98,102.29,-13.24,8.30
187405,0.10,0.16,0.95,171.94,-12.51,2.38
187511,0.11,0.23,0.92,-153.08,10.56,-13.79
187616,0.12,-0.36,0.96,-247.56,12.82,-7.20
187723,0.09,-0.70,0.76,48.16,-12.57,1.04
187828,0.13,-0.19,0.99,229.25,-20.20,6.04
187933,0.14,0.07,1.00,-42.36,4.52,-6.77
188038,0.15,-0.35,0.95,-200.93,21.85,-6.77
188143,0.11,-0.62,0.79,-57.80,-1.59,-4.70
188248,0.14,-0.38,0.93,281.31,-34.24,5.62
188355,0.15,0.09,0.98,180.30,-8.54,6.04
188461,0.13,0.01,1.00,-254.39,36.19,-15.44
188566,0.10,-0.36,0.96,-161.80,20.14,-0.98
188671,0.11,-0.50,0.86,22.89,-3.85,1.10
188776,0.14,-0.16,1.02,285.03,-33.87,8.36
188881,0.11,0.27,0.93,39.18,3.17,-3.11
188987,0.16,-0.14,0.99,-281.86,30.82,-12.94
189091,0.10,-0.34,0.96,-82.95,9.77,-1.34
189195,0.07,-0.47,0.91,-60.30,6.23,-3.97
189301,0.10,-0.74,0.72,-241.52,-12.51,-20.20
189408,0.15,-0.70,0.71,251.77,-37.60,-8.73
189514,0.18,-0.38,0.97,234.19,-20.75,5.37
189618,0.16,0.01,0.97,99.06,-2.50,4.58
189722,0.15,-0.26,1.00,-412.29,63.35,-23.44
189828,0.15,-0.48,0.86,116.09,-12.08,10.13
189935,0.14,0.00,0.99,113.95,-11.17,0.67
190040,0.14,-0.15,0.97,-81.67,3.85,-10.38
190147,0.16,-0.10,0.97,179.20,-13.06,32.84
190252,0.11,0.14,1.02,-29.91,2.20,-10.44
190356,0.16,-0.28,0.93,-173.28,-3.05,-7.69
190461,0.13,-0.19,1.00,112.06,-10.31,29.30
190565,0.13,-0.02,1.02,87.22,-9.22,9.46
190670,0.14,-0.30,0.94,-243.41,23.07,-29.91
190774,0.13,-0.41,0.91,185.61,-23.86,26.79
190878,0.13,0.03,1.02,70.86,-4.58,6.65
190984,0.13,-0.13,1.00,-71.96,17.15,-8.06
191090,0.11,-0.18,0.96,-16.30,-4.09,-4.33
191195,0.16,-0.18,0.93,-119.38,-10.07,12.88
191300,0.11,-0.42,0.89,-54.38,0.49,-15.81
191407,0.17,-0.42,0.92,19.96,-12.39,-0.73
191512,0.17,-0.19,1.00,159.24,-0.12,13.49
191616,0.16,-0.07,0.96,-73.49,9.16,-37.84
191722,0.19,-0.39,0.90,-57.37,5.98,-2.93
191827,0.16,-0.32,0.98,116.15,-8.91,24.72
191931,0.15,-0.02,0.99,33.26,-4.33,-13.06
192036,0.18,-0.16,0.90,-49.93,1.04,10.19
192141,0.14,-0.27,0.90,-189.15,38.64,35.22
192248,0.08,-0.62,0.86,101.56,-18.37,4.46
192353,0.14,-0.06,0.97,177.00,-15.99,-9.03
192460,0.13,0.14,0.94,-201.84,22.09,-20.81
192565,0.16,-0.51,0.87,-172.06,13.49,0.73
192669,0.13,-0.50,0.92,148.68,-19.65,12.57
192774,0.13,-0.06,0.96,59.57,-11.17,-14.04
192879,0.17,-0.12,0.93,-43.46,1.46,2.87
192984,0.11,-0.37,0.97,-56.52,6.16,44.62
193091,0.13,-0.35,0.97,43.64,-6.10,-28.87
193196,0.17,-0.01,1.01,186.34,-15.08,-1.77
193301,0.14,0.27,0.93,91.55,0.92,-1.53
193408,0.13,-0.04,1.03,-266.05,32.23,-21.36
193512,0.12,-0.51,0.92,-122.38,9.64,1.83
193616,0.11,-0.38,1.00,216.19,-24.35,10.38
193721,0.15,-0.11,0.97,28.02,-3.97,-1.10
193826,0.13,-0.12,0.98,-53.22,1.77,-4.76
193930,0.13,-0.15,0.99,-22.64,2.20,-1.04
194035,0.13,-0.26,0.98,12.21,-0.18,3.54
194142,0.11,-0.36,0.95,-10.13,1.04,-1.28
194247,0.13,-0.32,0.94,34.67,-6.96,2.44
194351,0.13,-0.21,1.01,104.37,-10.74,8.00
194455,0.13,-0.11,0.98,36.68,-6.71,-0.18
194559,0.14,-0.15,0.98,-93.44,6.59,-16.24
194664,0.14,-0.27,0.99,-16.97,1.46,1.83
194769,0.14,-0.26,0.99,29.11,-3.05,2.26
194874,0.15,-0.11,0.99,23.74,-2.20,-1.28
194981,0.14,-0.20,0.97,-90.94,6.04,-5.98
195086,0.14,-0.35,0.95,-22.40,-0.37,0.06
195193,0.15,-0.33,0.95,44.49,-4.64,3.05
195299,0.15,-0.10,0.95,62.68,-7.75,1.46
195404,0.18,-0.29,0.99,-155.82,3.54,-2.75
195509,0.16,-0.38,0.95,33.75,-3.17,3.97
195614,0.16,-0.28,0.98,101.32,-9.16,6.53
195718,0.16,-0.18,0.97,-16.85,0.00,-10.74
195823,0.16,-0.24,0.96,-93.93,9.09,-6.10
195928,0.16,-0.33,0.96,-4.33,0.98,1.46
196035,0.16,-0.28,0.99,81.48,-7.75,7.75
196141,0.16,-0.14,0.99,32.47,-4.09,-2.56
196246,0.18,-0.16,0.98,2.62,-2.08,0.43
196351,0.17,-0.22,0.94,-72.57,6.53,-1.46
196456,0.16,-0.31,0.95,28.50,-3.23,3.36
196561,0.16,-0.19,0.99,83.56,-7.63,3.11
196666,0.17,-0.11,0.99,-0.55,0.24,-4.33
196770,0.17,-0.19,0.97,-90.94,6.59,-5.13
196877,0.18,-0.29,0.97,16.85,-2.08,1.28
196982,0.17,-0.20,0.97,68.48,-7.14,2.14
197086,0.17,-0.13,0.99,-13.61,1.95,-2.81
197192,0.18,-0.18,0.99,-50.17,6.23,-7.93
197297,0.17,-0.32,0.95,-28.50,4.09,-0.06
197402,0.17,-0.28,0.98,47.91,-6.65,4.52
197508,0.19,-0.21,0.97,13.85,-0.61,-1.16
197614,0.19,-0.15,0.98,29.79,-2.44,6.41
197719,0.19,-0.08,0.99,52.25,-3.30,17.94
197824,0.17,-0.08,1.01,-86.18,7.87,-33.14
197931,0.19,-0.16,0.97,2.38,-1.77,-0.18
198037,0.19,-0.17,1.02,-1.34,1.10,1.59
198144,0.23,-0.19,1.21,23.99,9.28,-2.08
198249,0.13,-0.25,1.09,3.30,61.77,11.90
198354,-0.09,-0.11,1.09,-8.79,96.01,35.58
198459,-0.24,-0.03,1.03,-9.58,107.73,47.06
198566,-0.43,0.05,0.96,-7.26,97.41,52.49
198672,-0.60,-0.01,0.87,-5.92,104.86,37.05
198777,-0.63,0.10,0.56,-13.43,138.06,71.72
198882,-0.70,0.20,0.42,-16.66,93.32,10.38
198988,-0.80,0.21,0.23,7.87,79.28,11.84
199094,-0.77,0.22,-0.05,45.84,19.04,-10.25
199199,-0.85,0.20,-0.03,-8.00,0.12,-51.57
199305,-0.84,0.08,-0.05,-20.26,-36.38,-51.70
199409,-0.88,-0.10,0.27,31.25,-95.58,-26.25
199513,-0.87,-0.12,0.60,-23.99,-92.65,-19.17
199618,-0.99,-0.39,0.80,-5.98,-36.87,6.29
199723,-0.84,-0.11,0.69,8.36,2.14,47.18
199828,-0.74,-0.03,0.51,-24.90,-16.05,33.14
199933,-0.70,0.05,0.65,-21.48,-38.02,4.58
200037,-0.68,-0.11,0.71,-1.77,-75.32,36.80
200142,-0.72,-0.23,0.88,-38.57,2.50,-5.31
200248,-0.61,0.09,0.68,59.57,73.61,89.42
200353,-0.61,0.06,0.57,-11.96,-14.89,18.19
200460,-0.66,-0.03,0.73,-12.21,-33.51,-22.95
200565,-0.70,-0.01,0.87,-1.71,6.77,4.15
200669,-0.63,0.06,0.70,31.92,32.04,24.05
200774,-0.66,0.12,0.67,-25.33,2.38,-20.87
200878,-0.70,0.07,0.72,26.73,-5.13,6.10
200983,-0.68,0.18,0.72,44.49,2.50,11.23
201087,-0.67,0.19,0.70,13.79,-2.81,0.18
201192,-0.68,0.19,0.70,-0.85,0.31,-2.81
201297,-0.69,0.19,0.76,-52.25,47.61,-10.99
201402,-0.75,0.07,0.64,-12.21,47.85,-2.20
201506,-0.82,0.08,0.58,28.75,63.17,-1.28
201610,-0.84,0.18,0.31,11.17,81.42,-19.17
201715,-0.83,0.20,0.31,39.43,4.15,-11.54
201820,-0.86,0.11,0.28,36.68,-30.15,-34.91
201924,-0.93,-0.01,0.37,4.46,-0.98,-13.49
202029,-0.87,0.00,0.37,-62.13,18.25,30.27
202134,-0.89,0.13,0.64,3.60,-7.63,-29.54
202241,-0.88,0.00,0.46,-49.01,-24.72,10.44
202347,-0.80,0.02,0.62,-4.39,-18.07,-5.49
202451,-0.70,-0.00,0.57,-25.21,-28.50,-10.25
202555,-0.74,-0.10,0.67,52.37,-20.02,-19.17
202659,-0.75,-0.03,0.67,-5.19,1.46,-6.65
202764,-0.75,-0.06,0.67,-3.97,9.70,4.39
202871,-0.75,-0.07,0.66,7.32,6.96,-6.41
202977,-0.76,-0.06,0.64,4.76,9.03,-6.29
203084,-0.79,-0.06,0.64,39.37,-7.87,1.10
203188,-0.76,-0.00,0.65,37.41,13.12,-6.90
203293,-0.78,0.04,0.61,9.83,3.78,0.98
203398,-0.77,0.04,0.62,5.07,-1.83,-0.79
203502,-0.78,0.04,0.64,5.68,0.00,2.26
203607,-0.78,0.07,0.63,4.88,7.02,4.94
203714,-0.82,0.07,0.62,13.12,13.61,-1.16
203820,-0.80,0.10,0.56,7.75,7.20,3.66
203927,-0.82,0.06,0.56,6.59,0.98,0.67
204032,-0.81,0.08,0.54,20.45,3.78,17.46
204139,-0.81,0.00,0.51,-14.89,4.46,-35.52
204244,-0.83,0.08,0.55,16.66,1.71,19.29
204348,-0.80,0.05,0.52,-15.56,6.77,-28.26
204453,-0.82,0.01,0.53,-17.27,-9.16,17.21
204560,-0.82,0.05,0.57,-34.61,-1.53,15.26
204664,-0.83,0.03,0.57,7.02,1.71,-8.48
204768,-0.82,0.08,0.53,67.57,3.05,-1.71
204873,-0.82,0.12,0.53,9.40,3.42,-4.09
204980,-0.83,0.09,0.53,-10.86,-2.14,7.45
205085,-0.83,0.09,0.55,-25.21,-0.06,-0.37
205192,-0.83,0.06,0.54,-6.90,9.58,-1.04
205297,-0.83,0.09,0.54,11.60,9.03,0.49
205404,-0.84,0.07,0.52,0.61,3.23,-2.01
205509,-0.84,0.09,0.52,1.71,-0.49,-0.24
205614,-0.84,0.09,0.52,4.76,0.92,0.24
205719,-0.84,0.08,0.52,-0.43,-0.06,-1.71
205824,-0.84,0.09,0.51,2.32,0.00,-1.10
205929,-0.84,0.10,0.52,1.77,0.61,1.22
206034,-0.84,0.09,0.52,0.98,0.24,-0.61
206139,-0.84,0.09,0.51,0.00,0.06,-1.28
206245,-0.84,0.10,0.51,1.40,0.12,0.73
206350,-0.84,0.09,0.52,2.26,-0.67,-0.18
206457,-0.85,0.09,0.52,0.43,0.92,-0.43
206562,-0.84,0.09,0.52,0.24,0.24,0.31
206667,-0.84,0.10,0.52,-0.18,-0.37,-0.98
206772,-0.84,0.10,0.52,2.69,-0.31,0.37
206879,-0.84,0.10,0.52,0.73,0.98,-0.79
206984,-0.85,0.09,0.53,-0.61,0.06,0.06
207089,-0.84,0.10,0.51,2.38,-0.31,-0.18
207194,-0.84,0.10,0.51,-0.85,1.46,0.73
207300,-0.84,0.09,0.51,0.18,0.37,-0.49
207406,-0.84,0.10,0.51,-0.06,0.79,-0.92
207511,-0.84,0.10,0.51,2.62,-0.67,0.06
207617,-0.84,0.09,0.52,-0.92,-1.22,0.98
